Folder: screener_center/data/kucoin_4h

Note: readme.txt
#Per rilasciare su pythonanywhere
1. git clone the project https://github.com/blenn-90/screener_center.git
2. add src/utilities/static_data_unsharable.py
3. set var project_is_live = 1
4. set var project_separator_path = "/"
5. reset data
6. active reload app in schedule.py

File: XRD-USDT.csv
Date,Open,Close,High,Low
2023-06-25 16:00:00,0.07612,0.07761,0.07787,0.0761
2023-06-26 20:00:00,0.08451,0.08499,0.0852,0.08375
2023-06-28 00:00:00,0.0831,0.08155,0.08351,0.08154
2023-06-29 04:00:00,0.06389,0.0625,0.06397,0.06192
2023-06-30 08:00:00,0.06468,0.06165,0.06476,0.06165
2023-07-01 12:00:00,0.06489,0.06333,0.065,0.06291
2023-07-02 16:00:00,0.06267,0.0627,0.06289,0.06261
2023-07-03 20:00:00,0.06424,0.06415,0.06454,0.0633
2023-07-05 00:00:00,0.06192,0.06191,0.06231,0.06165
2023-07-06 04:00:00,0.05898,0.05887,0.05956,0.05861
2023-07-07 08:00:00,0.05675,0.05636,0.05694,0.05627
2023-07-08 12:00:00,0.05995,0.05995,0.06058,0.0588
2023-07-09 16:00:00,0.05783,0.05816,0.0585,0.05723
2023-07-10 20:00:00,0.05729,0.05662,0.05751,0.056
2023-07-12 00:00:00,0.05549,0.05515,0.0562,0.0547
2023-07-13 04:00:00,0.05816,0.05738,0.0585,0.05738
2023-07-14 08:00:00,0.06251,0.0626,0.06278,0.061
2023-07-15 12:00:00,0.06543,0.06401,0.06609,0.06401
2023-07-16 16:00:00,0.06269,0.06256,0.06346,0.06102
2023-07-17 20:00:00,0.061,0.06012,0.06149,0.05945
2023-07-19 00:00:00,0.05919,0.06001,0.06026,0.05903
2023-07-20 04:00:00,0.05974,0.06085,0.0609,0.05924
2023-07-21 08:00:00,0.05875,0.05731,0.05878,0.0571
2023-07-22 12:00:00,0.05724,0.05765,0.05804,0.05715
2023-07-23 16:00:00,0.05798,0.05789,0.05881,0.05745
2023-07-24 20:00:00,0.056,0.05587,0.05607,0.0555
2023-07-26 00:00:00,0.05695,0.05697,0.05709,0.05649
2023-07-27 04:00:00,0.05611,0.05603,0.05637,0.05588
2023-07-28 08:00:00,0.05588,0.05593,0.05612,0.05579
2023-07-29 12:00:00,0.05615,0.05609,0.05626,0.056
2023-07-30 16:00:00,0.05614,0.05573,0.05633,0.05571
2023-07-31 20:00:00,0.05508,0.0552,0.05528,0.05498
2023-08-02 00:00:00,0.05565,0.055,0.05606,0.05487
2023-08-03 04:00:00,0.05245,0.05254,0.05334,0.05236
2023-08-04 08:00:00,0.05354,0.05333,0.05359,0.05315
2023-08-05 12:00:00,0.0531,0.05259,0.05329,0.05253
2023-08-06 16:00:00,0.05275,0.05276,0.05314,0.05269
2023-08-07 20:00:00,0.05224,0.05246,0.05261,0.05212
2023-08-09 00:00:00,0.05284,0.05304,0.05311,0.05276
2023-08-10 04:00:00,0.05254,0.05238,0.05263,0.05238
2023-08-11 08:00:00,0.05235,0.05273,0.05289,0.05211
2023-08-12 12:00:00,0.05263,0.05299,0.0531,0.05262
2023-08-13 16:00:00,0.05483,0.05387,0.05486,0.05318
2023-08-14 20:00:00,0.05573,0.0561,0.05618,0.05553
2023-08-16 00:00:00,0.0562,0.0597,0.05985,0.05614
2023-08-17 04:00:00,0.05675,0.05646,0.05677,0.05641
2023-08-18 08:00:00,0.0529,0.0522,0.053,0.05193
2023-08-19 12:00:00,0.05447,0.0558,0.0558,0.05443
2023-08-20 16:00:00,0.0536,0.05449,0.05479,0.05356
2023-08-21 20:00:00,0.05398,0.05371,0.05417,0.05361
2023-08-23 00:00:00,0.0549,0.05444,0.05501,0.05444
2023-08-24 04:00:00,0.05475,0.05362,0.05484,0.05328
2023-08-25 08:00:00,0.05296,0.05308,0.05328,0.05293
2023-08-26 12:00:00,0.05361,0.05322,0.05369,0.053
2023-08-27 16:00:00,0.05288,0.05293,0.05317,0.05284
2023-08-28 20:00:00,0.05232,0.05242,0.0526,0.05211
2023-08-30 00:00:00,0.05398,0.05338,0.05432,0.0533
2023-08-31 04:00:00,0.05293,0.05287,0.05302,0.05287
2023-09-01 08:00:00,0.05223,0.05239,0.05249,0.05215
2023-09-02 12:00:00,0.05153,0.05157,0.05182,0.05146
2023-09-03 16:00:00,0.05194,0.05186,0.05204,0.0518
2023-09-04 20:00:00,0.05186,0.0518,0.05194,0.05139
2023-09-06 00:00:00,0.05498,0.05394,0.05499,0.05392
2023-09-07 04:00:00,0.05378,0.05339,0.05381,0.05309
2023-09-08 08:00:00,0.05672,0.05669,0.0577,0.05652
2023-09-09 12:00:00,0.06361,0.06259,0.06365,0.06084
2023-09-10 16:00:00,0.05913,0.05712,0.05913,0.0561
2023-09-11 20:00:00,0.05517,0.05487,0.05567,0.05471
2023-09-13 00:00:00,0.05706,0.05712,0.05715,0.05679
2023-09-14 04:00:00,0.05584,0.05523,0.0559,0.05438
2023-09-15 08:00:00,0.05534,0.05521,0.05629,0.05518
2023-09-16 12:00:00,0.05536,0.05567,0.05584,0.05529
2023-09-17 16:00:00,0.05519,0.05538,0.05551,0.05513
2023-09-18 20:00:00,0.05623,0.05602,0.05644,0.0559
2023-09-20 00:00:00,0.05793,0.05784,0.05793,0.05751
2023-09-21 04:00:00,0.05813,0.05793,0.05813,0.05757
2023-09-22 08:00:00,0.05864,0.06016,0.0607,0.05863
2023-09-23 12:00:00,0.06348,0.06737,0.0675,0.06312
2023-09-24 16:00:00,0.06782,0.06713,0.0684,0.0668
2023-09-25 20:00:00,0.06083,0.06162,0.062,0.06082
2023-09-27 00:00:00,0.06243,0.06194,0.06248,0.06147
2023-09-28 04:00:00,0.06246,0.06378,0.06501,0.06189
2023-09-29 08:00:00,0.06037,0.05952,0.06066,0.0594
2023-09-30 12:00:00,0.05819,0.05745,0.05825,0.05736
2023-10-01 16:00:00,0.05804,0.05813,0.05875,0.0579
2023-10-02 20:00:00,0.05695,0.05727,0.05769,0.0565
2023-10-04 00:00:00,0.05644,0.05629,0.05644,0.05616
2023-10-05 04:00:00,0.05267,0.05255,0.05289,0.0525
2023-10-06 08:00:00,0.049,0.04978,0.05015,0.04862
2023-10-07 12:00:00,0.0484,0.04824,0.0486,0.04809
2023-10-08 16:00:00,0.04767,0.04776,0.04782,0.04748
2023-10-09 20:00:00,0.04609,0.04409,0.04609,0.04399
2023-10-11 00:00:00,0.04467,0.04588,0.046,0.04463
2023-10-12 04:00:00,0.04162,0.04106,0.04177,0.04103
2023-10-13 08:00:00,0.04018,0.04006,0.04092,0.03984
2023-10-14 12:00:00,0.04006,0.0401,0.04027,0.04001
2023-10-15 16:00:00,0.03919,0.03932,0.03938,0.03847
2023-10-16 20:00:00,0.04025,0.03964,0.04028,0.03914
2023-10-18 00:00:00,0.0394,0.0394,0.03956,0.03932
2023-10-19 04:00:00,0.0414,0.04154,0.04164,0.04107
2023-10-20 08:00:00,0.04258,0.043,0.04358,0.04258
2023-10-21 12:00:00,0.04534,0.0444,0.04545,0.04411
2023-10-22 16:00:00,0.04141,0.04118,0.04151,0.04116
2023-10-23 20:00:00,0.04279,0.04384,0.04386,0.04228
2023-10-25 00:00:00,0.04466,0.04465,0.04488,0.04442
2023-10-26 04:00:00,0.04497,0.04504,0.04511,0.04458
2023-10-27 08:00:00,0.04242,0.0421,0.04311,0.04182
2023-10-28 12:00:00,0.0414,0.04095,0.04147,0.04076
2023-10-29 16:00:00,0.0411,0.04199,0.04255,0.04098
2023-10-30 20:00:00,0.04202,0.04151,0.04204,0.04117
2023-11-01 00:00:00,0.04263,0.04141,0.04263,0.04135
2023-11-02 04:00:00,0.04054,0.04107,0.04163,0.04054
2023-11-03 08:00:00,0.04093,0.04097,0.04166,0.04067
2023-11-04 12:00:00,0.04326,0.0425,0.04339,0.04226
2023-11-05 16:00:00,0.04378,0.04567,0.04591,0.04373
2023-11-06 20:00:00,0.04683,0.04722,0.04797,0.045
2023-11-08 00:00:00,0.04778,0.04682,0.04778,0.04669
2023-11-09 04:00:00,0.04346,0.04303,0.044,0.04284
2023-11-10 08:00:00,0.04232,0.04248,0.04306,0.042
2023-11-11 12:00:00,0.04411,0.04327,0.04426,0.04243
2023-11-12 16:00:00,0.04543,0.04493,0.04546,0.04463
2023-11-13 20:00:00,0.04419,0.04374,0.04425,0.0437
2023-11-15 00:00:00,0.0449,0.04405,0.04498,0.044
2023-11-16 04:00:00,0.04734,0.0459,0.0474,0.04585
2023-11-17 08:00:00,0.04516,0.04621,0.0466,0.0451
2023-11-18 12:00:00,0.04546,0.04627,0.04644,0.04515
2023-11-19 16:00:00,0.04704,0.04715,0.04725,0.04689
2023-11-20 20:00:00,0.05174,0.05527,0.0565,0.0511
2023-11-22 00:00:00,0.04955,0.04991,0.05086,0.04926
2023-11-23 04:00:00,0.05797,0.05879,0.0595,0.05736
2023-11-24 08:00:00,0.05988,0.06025,0.06094,0.0595
2023-11-25 12:00:00,0.05559,0.05491,0.05615,0.0547
2023-11-26 16:00:00,0.05351,0.05467,0.05597,0.05301
2023-11-27 20:00:00,0.05109,0.05039,0.05134,0.0498
2023-11-29 00:00:00,0.0509,0.05126,0.05153,0.05046
2023-11-30 04:00:00,0.0553,0.05449,0.05533,0.05441
2023-12-01 08:00:00,0.05248,0.05364,0.055,0.05194
2023-12-02 12:00:00,0.05554,0.058,0.059,0.05436
2023-12-03 16:00:00,0.05632,0.05498,0.05671,0.05463
2023-12-04 20:00:00,0.05254,0.05165,0.053,0.05064
2023-12-06 00:00:00,0.05079,0.05136,0.05217,0.05002
2023-12-07 04:00:00,0.05101,0.05213,0.05299,0.05101
2023-12-08 08:00:00,0.05025,0.04955,0.051,0.04787
2023-12-09 12:00:00,0.05146,0.05105,0.053,0.0508
2023-12-10 16:00:00,0.04937,0.04944,0.04953,0.049
2023-12-11 20:00:00,0.0446,0.04449,0.04487,0.04406
2023-12-13 00:00:00,0.0484,0.04872,0.049,0.04711
2023-12-14 04:00:00,0.04802,0.04856,0.04893,0.04778
2023-12-15 08:00:00,0.04681,0.04799,0.048,0.04657
2023-12-16 12:00:00,0.04566,0.0458,0.046,0.04542
2023-12-17 16:00:00,0.04362,0.0445,0.04494,0.04276
2023-12-18 20:00:00,0.04137,0.04177,0.0429,0.03985
2023-12-20 00:00:00,0.04255,0.04589,0.04642,0.04255
2023-12-21 04:00:00,0.0481,0.04884,0.049,0.04746
2023-12-22 08:00:00,0.04601,0.04531,0.04616,0.04502
2023-12-23 12:00:00,0.04537,0.04594,0.04594,0.045
2023-12-24 16:00:00,0.04411,0.0447,0.04522,0.04357
2023-12-25 20:00:00,0.04629,0.04692,0.04758,0.04522
2023-12-27 00:00:00,0.04474,0.0444,0.04576,0.04403
2023-12-28 04:00:00,0.04748,0.04799,0.04843,0.047
2023-12-29 08:00:00,0.04537,0.04481,0.04603,0.04444
2023-12-30 12:00:00,0.04367,0.04424,0.0444,0.04342
2023-12-31 16:00:00,0.0429,0.04267,0.04354,0.04214
2024-01-01 20:00:00,0.0415,0.04284,0.04294,0.04114
2024-01-03 00:00:00,0.04228,0.04236,0.04632,0.04068
2024-01-04 04:00:00,0.04137,0.04085,0.04227,0.0406
2024-01-05 08:00:00,0.04284,0.04323,0.04358,0.04235
2024-01-06 12:00:00,0.04205,0.04267,0.04301,0.04204
2024-01-07 16:00:00,0.04119,0.04103,0.04143,0.04077
2024-01-08 20:00:00,0.04169,0.04173,0.04267,0.04094
2024-01-10 00:00:00,0.03976,0.0395,0.04006,0.03935
2024-01-11 04:00:00,0.04106,0.0409,0.04124,0.04041
2024-01-12 12:00:00,0.04051,0.04015,0.04107,0.03978
2024-01-13 16:00:00,0.03977,0.0396,0.03983,0.03939
2024-01-14 20:00:00,0.04006,0.04058,0.04176,0.03969
2024-01-16 00:00:00,0.0432,0.04297,0.04373,0.04262
2024-01-17 04:00:00,0.04288,0.04207,0.04327,0.04195
2024-01-18 08:00:00,0.04392,0.0442,0.04508,0.04379
2024-01-19 12:00:00,0.0458,0.04417,0.04638,0.0433
2024-01-20 16:00:00,0.0436,0.04376,0.0438,0.04318
2024-01-21 20:00:00,0.04437,0.0445,0.04499,0.04427
2024-01-23 00:00:00,0.04046,0.04096,0.04128,0.04046
2024-01-24 04:00:00,0.04155,0.04201,0.04236,0.04144
2024-01-25 08:00:00,0.04059,0.04041,0.04065,0.04041
2024-01-26 16:00:00,0.04169,0.04276,0.04307,0.0416
2024-01-27 20:00:00,0.04266,0.04278,0.04319,0.04259
2024-01-29 00:00:00,0.04148,0.042,0.04311,0.04107
2024-01-30 04:00:00,0.04167,0.04185,0.0435,0.04113
2024-01-31 08:00:00,0.04025,0.04032,0.04055,0.0399
2024-02-01 12:00:00,0.0401,0.04037,0.04185,0.03999
2024-02-02 08:00:00,0.0408,0.041,0.04114,0.04078