Folder: screener_center/data/kucoin_4h - Copia

Note: readme.txt
#Per rilasciare su pythonanywhere
1. git clone the project https://github.com/blenn-90/screener_center.git
2. add src/utilities/static_data_unsharable.py
3. set var project_is_live = 1
4. set var project_separator_path = "/"
5. reset data
6. active reload app in schedule.py

File: XRD-USDT.csv
Date,Open,Close,High,Low
2023-03-08 08:00:00,0.03879,0.04021,0.04401,0.03879
2023-03-10 00:00:00,0.0389,0.03828,0.03907,0.03828
2023-03-11 16:00:00,0.03603,0.03609,0.03623,0.03572
2023-03-13 08:00:00,0.03909,0.03725,0.03947,0.037
2023-03-15 00:00:00,0.03856,0.03844,0.03869,0.03812
2023-03-16 16:00:00,0.03876,0.03908,0.03957,0.03867
2023-03-18 08:00:00,0.04036,0.04116,0.04203,0.04036
2023-03-20 00:00:00,0.04381,0.04237,0.04387,0.04234
2023-03-21 16:00:00,0.04159,0.04182,0.04203,0.04148
2023-03-23 08:00:00,0.03958,0.04078,0.04171,0.03958
2023-03-25 00:00:00,0.04217,0.04206,0.04443,0.04206
2023-03-26 16:00:00,0.04195,0.04258,0.04286,0.04186
2023-03-28 08:00:00,0.04093,0.04029,0.0418,0.04001
2023-03-30 00:00:00,0.04215,0.04162,0.04233,0.04162
2023-03-31 16:00:00,0.04073,0.04062,0.04093,0.04056
2023-04-02 08:00:00,0.04329,0.04346,0.04347,0.04286
2023-04-04 00:00:00,0.04215,0.04234,0.04253,0.04206
2023-04-05 16:00:00,0.04414,0.04483,0.04518,0.04354
2023-04-07 08:00:00,0.04697,0.04906,0.0491,0.04683
2023-04-09 00:00:00,0.05567,0.05764,0.05927,0.0534
2023-04-10 16:00:00,0.05368,0.05342,0.0555,0.05335
2023-04-12 08:00:00,0.05289,0.05411,0.05456,0.05283
2023-04-14 00:00:00,0.08168,0.07625,0.08324,0.076
2023-04-15 16:00:00,0.07732,0.07422,0.07936,0.07413
2023-04-17 08:00:00,0.08663,0.08433,0.0868,0.084
2023-04-19 00:00:00,0.14182,0.12854,0.1499,0.12545
2023-04-20 16:00:00,0.10813,0.0936,0.10927,0.087
2023-04-22 08:00:00,0.08716,0.088,0.09054,0.08208
2023-04-24 00:00:00,0.09881,0.1011,0.102,0.09668
2023-04-25 16:00:00,0.08602,0.08863,0.08903,0.08478
2023-04-27 08:00:00,0.10831,0.10845,0.109,0.105
2023-04-29 00:00:00,0.10614,0.10775,0.1099,0.10595
2023-04-30 16:00:00,0.1076,0.10533,0.108,0.105
2023-05-02 08:00:00,0.09693,0.09507,0.09941,0.09502
2023-05-04 00:00:00,0.08997,0.0893,0.09085,0.08889
2023-05-05 16:00:00,0.08132,0.08133,0.08348,0.0812
2023-05-07 08:00:00,0.08671,0.08594,0.09,0.0857
2023-05-09 00:00:00,0.082,0.07854,0.08238,0.07848
2023-05-10 16:00:00,0.07957,0.07785,0.08048,0.0755
2023-05-12 08:00:00,0.07287,0.06983,0.07288,0.06922
2023-05-14 00:00:00,0.07385,0.0723,0.07387,0.07209
2023-05-15 16:00:00,0.07641,0.0761,0.0799,0.076
2023-05-17 08:00:00,0.07677,0.075,0.07818,0.075
2023-05-19 00:00:00,0.07201,0.07335,0.07358,0.072
2023-05-20 16:00:00,0.07326,0.07254,0.07382,0.07231
2023-05-22 08:00:00,0.07099,0.07458,0.0756,0.07062
2023-05-24 00:00:00,0.07299,0.0725,0.07385,0.0725
2023-05-25 16:00:00,0.06942,0.07104,0.07148,0.06918
2023-05-27 08:00:00,0.06655,0.06665,0.06727,0.06606
2023-05-29 00:00:00,0.07181,0.0695,0.07274,0.06913
2023-05-30 16:00:00,0.07008,0.0701,0.07089,0.07
2023-06-01 08:00:00,0.06513,0.06604,0.06769,0.0651
2023-06-03 00:00:00,0.07223,0.07031,0.07224,0.06983
2023-06-04 16:00:00,0.06746,0.06768,0.06781,0.06725
2023-06-06 08:00:00,0.06564,0.06589,0.06617,0.06564
2023-06-08 00:00:00,0.06873,0.06726,0.06894,0.0671
2023-06-09 16:00:00,0.06789,0.06719,0.06817,0.06718
2023-06-11 08:00:00,0.06285,0.0636,0.06385,0.06262
2023-06-13 00:00:00,0.06061,0.06146,0.06154,0.06055
2023-06-14 16:00:00,0.05726,0.05617,0.05731,0.0559
2023-06-16 08:00:00,0.05622,0.05567,0.05637,0.05554
2023-06-18 00:00:00,0.06063,0.06094,0.06113,0.0606
2023-06-19 16:00:00,0.05831,0.05787,0.05858,0.05731
2023-06-21 08:00:00,0.0615,0.06244,0.06279,0.06123
2023-06-23 00:00:00,0.07041,0.06919,0.07047,0.0691
2023-06-24 16:00:00,0.07051,0.07173,0.07204,0.0699
2023-06-26 08:00:00,0.07642,0.07812,0.07888,0.07621
2023-06-28 00:00:00,0.0831,0.08155,0.08351,0.08154
2023-06-29 16:00:00,0.06802,0.065,0.06905,0.065
2023-07-01 08:00:00,0.06345,0.06494,0.065,0.06338
2023-07-03 00:00:00,0.06429,0.06312,0.06448,0.0629
2023-07-04 16:00:00,0.06097,0.06123,0.062,0.0609
2023-07-06 08:00:00,0.05884,0.05905,0.06012,0.05862
2023-07-08 00:00:00,0.05813,0.0587,0.06015,0.0581
2023-07-09 16:00:00,0.05783,0.05816,0.0585,0.05723
2023-07-11 08:00:00,0.05661,0.05604,0.05661,0.05593
2023-07-13 00:00:00,0.05887,0.05813,0.05907,0.05777
2023-07-14 16:00:00,0.07001,0.06586,0.0732,0.06498
2023-07-16 08:00:00,0.06198,0.06204,0.06276,0.06145
2023-07-18 00:00:00,0.05997,0.06189,0.06217,0.05955
2023-07-19 16:00:00,0.05825,0.05908,0.05942,0.0582
2023-07-21 08:00:00,0.05875,0.05731,0.05878,0.0571
2023-07-23 00:00:00,0.05819,0.05743,0.05819,0.0572
2023-07-24 16:00:00,0.05616,0.056,0.05647,0.056
2023-07-26 08:00:00,0.05706,0.0574,0.05745,0.05689
2023-07-28 00:00:00,0.05621,0.05638,0.05669,0.05601
2023-07-29 16:00:00,0.0561,0.05615,0.05621,0.056
2023-07-31 08:00:00,0.05593,0.05612,0.05621,0.05579
2023-08-02 00:00:00,0.05565,0.055,0.05606,0.05487
2023-08-03 16:00:00,0.05307,0.0539,0.05399,0.05275
2023-08-05 08:00:00,0.05245,0.0531,0.0532,0.05241
2023-08-07 00:00:00,0.05247,0.05268,0.05305,0.05247
2023-08-08 16:00:00,0.05254,0.05292,0.05315,0.05251
2023-08-10 08:00:00,0.05238,0.05187,0.05252,0.05187
2023-08-12 00:00:00,0.05252,0.05303,0.0532,0.05243
2023-08-13 16:00:00,0.05483,0.05387,0.05486,0.05318
2023-08-15 08:00:00,0.05973,0.06072,0.06092,0.05875
2023-08-17 00:00:00,0.05627,0.05672,0.05682,0.05579
2023-08-18 16:00:00,0.05202,0.05234,0.05238,0.05196
2023-08-20 08:00:00,0.05372,0.05336,0.05384,0.05311
2023-08-22 00:00:00,0.05369,0.05384,0.05387,0.05364
2023-08-23 16:00:00,0.05499,0.05702,0.05736,0.05498
2023-08-25 08:00:00,0.05296,0.05308,0.05328,0.05293
2023-08-27 00:00:00,0.05326,0.05302,0.05332,0.05301
2023-08-28 16:00:00,0.05253,0.05233,0.05302,0.05229
2023-08-30 08:00:00,0.05331,0.05314,0.05353,0.05313
2023-09-01 00:00:00,0.05272,0.05242,0.05288,0.05238
2023-09-02 16:00:00,0.0516,0.0521,0.0527,0.05159
2023-09-04 08:00:00,0.05169,0.05145,0.05187,0.05143
2023-09-06 00:00:00,0.05498,0.05394,0.05499,0.05392
2023-09-07 16:00:00,0.05342,0.05308,0.05394,0.05303
2023-09-09 08:00:00,0.0642,0.06361,0.06487,0.06338
2023-09-11 00:00:00,0.05739,0.05718,0.05749,0.05713
2023-09-12 16:00:00,0.05767,0.05682,0.05795,0.05576
2023-09-14 08:00:00,0.05522,0.05559,0.05568,0.05522
2023-09-16 00:00:00,0.05581,0.05614,0.0563,0.05578
2023-09-17 16:00:00,0.05519,0.05538,0.05551,0.05513
2023-09-19 08:00:00,0.05641,0.05604,0.05654,0.05592
2023-09-21 00:00:00,0.05789,0.05813,0.05814,0.05777
2023-09-22 16:00:00,0.06225,0.06167,0.06243,0.06124
2023-09-24 08:00:00,0.06654,0.06746,0.06771,0.06648
2023-09-26 00:00:00,0.06162,0.05945,0.06167,0.05892
2023-09-27 16:00:00,0.06285,0.06154,0.06285,0.06098
2023-09-29 08:00:00,0.06037,0.05952,0.06066,0.0594
2023-10-01 00:00:00,0.05693,0.05684,0.05728,0.05651
2023-10-02 16:00:00,0.05762,0.05695,0.05775,0.05635
2023-10-04 08:00:00,0.05619,0.05356,0.05646,0.05318
2023-10-06 00:00:00,0.0487,0.04755,0.04875,0.04681
2023-10-07 16:00:00,0.04824,0.04748,0.04837,0.04737
2023-10-09 08:00:00,0.04766,0.04754,0.04865,0.04748
2023-10-11 00:00:00,0.04467,0.04588,0.046,0.04463
2023-10-12 16:00:00,0.04013,0.04036,0.04046,0.04005
2023-10-14 08:00:00,0.03996,0.04006,0.04022,0.03996
2023-10-16 00:00:00,0.04008,0.03982,0.04016,0.03978
2023-10-17 16:00:00,0.03933,0.03956,0.03959,0.0393
2023-10-19 08:00:00,0.04161,0.04175,0.04282,0.04146
2023-10-21 00:00:00,0.04403,0.0441,0.04417,0.04396
2023-10-22 16:00:00,0.04141,0.04118,0.04151,0.04116
2023-10-24 08:00:00,0.04506,0.0441,0.0451,0.04348
2023-10-26 00:00:00,0.04552,0.04504,0.04582,0.04494
2023-10-27 16:00:00,0.04197,0.04118,0.04214,0.03994
2023-10-29 08:00:00,0.04104,0.04091,0.04111,0.04085
2023-10-31 00:00:00,0.04142,0.04122,0.04173,0.04122
2023-11-01 16:00:00,0.04074,0.04105,0.04119,0.0402
2023-11-03 08:00:00,0.04093,0.04097,0.04166,0.04067
2023-11-05 00:00:00,0.04226,0.04286,0.04294,0.04201
2023-11-06 16:00:00,0.04656,0.04697,0.04698,0.04609
2023-11-08 08:00:00,0.04361,0.04497,0.04535,0.041
2023-11-10 00:00:00,0.0412,0.04172,0.0419,0.04106
2023-11-11 16:00:00,0.04337,0.04366,0.04388,0.04334
2023-11-13 08:00:00,0.04566,0.04478,0.0462,0.04446
2023-11-15 00:00:00,0.0449,0.04405,0.04498,0.044
2023-11-16 16:00:00,0.04789,0.04645,0.048,0.045
2023-11-18 08:00:00,0.04609,0.04546,0.04615,0.04528
2023-11-20 00:00:00,0.04692,0.04672,0.04708,0.0466
2023-11-21 16:00:00,0.0523,0.05155,0.05233,0.04896
2023-11-23 08:00:00,0.05881,0.06077,0.06396,0.05881
2023-11-25 00:00:00,0.05718,0.05602,0.05719,0.056
2023-11-26 16:00:00,0.05351,0.05467,0.05597,0.05301
2023-11-28 08:00:00,0.04974,0.05148,0.05173,0.04952
2023-11-30 00:00:00,0.05662,0.05533,0.057,0.055
2023-12-01 16:00:00,0.05383,0.05283,0.0543,0.052
2023-12-03 08:00:00,0.05698,0.05621,0.05708,0.05565
2023-12-05 00:00:00,0.05166,0.05037,0.05182,0.05
2023-12-06 16:00:00,0.052,0.05158,0.053,0.0502
2023-12-08 08:00:00,0.05025,0.04955,0.051,0.04787
2023-12-10 00:00:00,0.05057,0.05008,0.05082,0.0493
2023-12-11 16:00:00,0.04682,0.0446,0.04709,0.04415
2023-12-13 08:00:00,0.05023,0.04903,0.05072,0.04839
2023-12-15 00:00:00,0.0475,0.04728,0.04823,0.04695
2023-12-16 16:00:00,0.04575,0.04486,0.04586,0.04412
2023-12-18 08:00:00,0.03981,0.04,0.041,0.039
2023-12-20 04:00:00,0.04589,0.04698,0.047,0.04401
2023-12-21 20:00:00,0.04663,0.04739,0.04782,0.04623
2023-12-23 12:00:00,0.04537,0.04594,0.04594,0.045
2023-12-25 04:00:00,0.04563,0.04633,0.04725,0.04528
2023-12-26 20:00:00,0.04528,0.04474,0.04581,0.044
2023-12-28 12:00:00,0.04688,0.0452,0.04707,0.045
2023-12-30 04:00:00,0.0444,0.04406,0.04532,0.04402
2023-12-31 20:00:00,0.04266,0.04147,0.04303,0.04075
2024-01-02 12:00:00,0.04235,0.04213,0.04373,0.04196
2024-01-04 04:00:00,0.04137,0.04085,0.04227,0.0406
2024-01-05 20:00:00,0.04243,0.04293,0.04295,0.04211
2024-01-07 12:00:00,0.04175,0.04129,0.0425,0.04115
2024-01-09 08:00:00,0.04062,0.04065,0.04083,0.04031